{
  "resourceType": "Bundle",
  "type": "collection",
  "timestamp": "2024-01-15T10:30:00Z",
  "entry": [
    {
      "resource": {
        "resourceType": "Organization",
        "id": "org-diamond-medical-center",
        "name": "TT Đa Khoa Diamond (High Quality Medical Center)",
        "identifier": [
          {
            "system": "http://example.org/facility-id",
            "value": "ELV01519"
          }
        ]
      }
    },
    {
      "resource": {
        "resourceType": "Patient",
        "id": "patient-ntk-19930108",
        "identifier": [
          {
            "system": "http://hospital.example.org/pid",
            "value": "0231230022733"
          }
        ],
        "name": [
          {
            "use": "official",
            "text": "Nguyễn Trung Kiên",
            "family": "Nguyễn",
            "given": [
              "Trung",
              "Kiên"
            ]
          }
        ],
        "telecom": [
          {
            "system": "phone",
            "value": "0355973775",
            "use": "mobile"
          },
          {
            "system": "email",
            "value": "ntkien@lacviet.com.vn"
          }
        ],
        "gender": "male",
        "birthDate": "1993-01-08"
      }
    },
    {
      "resource": {
        "resourceType": "Encounter",
        "id": "encounter-2024-01-05",
        "status": "finished",
        "class": {
          "system": "http://terminology.hl7.org/CodeSystem/v3-ActCode",
          "code": "AMB",
          "display": "ambulatory"
        },
        "subject": {
          "reference": "Patient/patient-ntk-19930108"
        },
        "serviceProvider": {
          "reference": "Organization/org-diamond-medical-center"
        },
        "period": {
          "start": "2024-01-05T00:00:00+07:00",
          "end": "2024-01-05T01:00:00+07:00"
        },
        "reasonCode": [
          {
            "text": "Khám sức khỏe tổng quát 2024"
          }
        ]
      }
    },
    {
      "resource": {
        "resourceType": "Observation",
        "id": "obs-001",
        "status": "final",
        "category": [
          {
            "coding": [
              {
                "system": "http://terminology.hl7.org/CodeSystem/observation-category",
                "code": "vital-signs"
              }
            ],
            "text": "vital-signs"
          }
        ],
        "code": {
          "coding": [
            {
              "system": "http://loinc.org",
              "code": "8302-2",
              "display": "Body height"
            }
          ],
          "text": "Body height"
        },
        "subject": {
          "reference": "Patient/patient-ntk-19930108"
        },
        "encounter": {
          "reference": "Encounter/encounter-2024-01-05"
        },
        "effectiveDateTime": "2024-01-05T00:00:00+07:00",
        "valueQuantity": {
          "value": 160,
          "unit": "cm",
          "system": "http://unitsofmeasure.org",
          "code": "cm"
        }
      }
    },
    {
      "resource": {
        "resourceType": "Observation",
        "id": "obs-002",
        "status": "final",
        "category": [
          {
            "coding": [
              {
                "system": "http://terminology.hl7.org/CodeSystem/observation-category",
                "code": "vital-signs"
              }
            ],
            "text": "vital-signs"
          }
        ],
        "code": {
          "coding": [
            {
              "system": "http://loinc.org",
              "code": "29463-7",
              "display": "Body weight"
            }
          ],
          "text": "Body weight"
        },
        "subject": {
          "reference": "Patient/patient-ntk-19930108"
        },
        "encounter": {
          "reference": "Encounter/encounter-2024-01-05"
        },
        "effectiveDateTime": "2024-01-05T00:00:00+07:00",
        "valueQuantity": {
          "value": 66,
          "unit": "kg",
          "system": "http://unitsofmeasure.org",
          "code": "kg"
        }
      }
    },
    {
      "resource": {
        "resourceType": "Immunization",
        "id": "immun-1",
        "status": "completed",
        "vaccineCode": {
          "text": "COVID-19 vaccine"
        },
        "patient": {
          "reference": "Patient/patient-ntk-19930108"
        },
        "occurrenceDateTime": "2021-08-01T00:00:00+07:00",
        "primarySource": false
      }
    },
    {
      "resource": {
        "resourceType": "MedicationRequest",
        "id": "medreq-1",
        "status": "stopped",
        "intent": "order",
        "medicationCodeableConcept": {
          "text": "No medication indicated at this time"
        },
        "subject": {
          "reference": "Patient/patient-ntk-19930108"
        },
        "encounter": {
          "reference": "Encounter/encounter-2024-01-05"
        },
        "reasonCode": [
          {
            "text": "Khám răng miệng: Vôi răng, vết dính – không chỉ định dùng thuốc"
          }
        ],
        "authoredOn": "2024-01-05T00:00:00+07:00",
        "requester": {
          "reference": "Organization/org-diamond-medical-center"
        }
      }
    }
  ]
}
